Timestamp (us),Gyroscope X (deg/s),Gyroscope Y (deg/s),Gyroscope Z (deg/s),Accelerometer X (g),Accelerometer Y (g),Accelerometer Z (g)
34290905,0.212382,-0.027105,0.072782,0.000092,0.031777,1.007784
34310881,0.082383,-0.027116,-0.011192,-0.001374,0.032234,1.005128
34330858,-0.001644,-0.042225,0.095525,-0.002289,0.031136,1.008333
34350834,0.028813,-0.125973,-0.049486,-0.001007,0.033059,1.007509
34370810,0.036469,-0.018932,-0.056994,0.001099,0.031777,1.007234
34390786,0.127690,0.042070,0.011730,-0.001923,0.031227,1.006777
34410762,0.135042,-0.072374,0.049723,-0.000733,0.030861,1.006227
34430739,-0.109203,-0.026531,-0.072228,-0.002106,0.033333,1.008425
34450714,0.005378,0.065031,-0.049266,-0.001557,0.031685,1.009432
34470691,-0.093686,0.011507,0.011797,-0.000916,0.033425,1.006136
34490667,-0.093575,-0.018970,-0.018705,-0.001557,0.032234,1.008333
34510642,-0.108383,-0.003687,0.019499,-0.000824,0.030128,1.010348
34530618,-0.009066,-0.003707,-0.064373,-0.002747,0.030220,1.007234
34550594,-0.153920,0.049680,-0.079460,-0.001740,0.032784,1.007051
34570570,-0.229688,-0.034249,-0.002996,-0.000549,0.033516,1.006502
34590546,0.022519,0.042052,0.035068,-0.002473,0.035348,1.006593
34610522,0.052798,0.041889,0.034963,-0.001374,0.032234,1.006777
34630498,-0.008266,0.011293,-0.033636,-0.001832,0.033700,1.006410
34650474,-0.000738,-0.103002,0.012122,0.000366,0.034249,1.008974
34670451,-0.008273,0.003939,-0.010766,-0.001648,0.031227,1.011172
34690427,0.006882,-0.118014,-0.071743,-0.002381,0.030678,1.004029
34710403,-0.031078,0.095663,-0.079154,-0.001190,0.032326,1.005586
34730379,0.174661,-0.056954,-0.002769,-0.000733,0.030220,1.006868
34750355,-0.054427,-0.094980,0.088669,0.000458,0.033333,1.008700
34770331,-0.046614,-0.003227,-0.033437,-0.000458,0.032784,1.008333
34790307,-0.130334,0.004356,0.065711,0.000183,0.030952,1.005311
34810284,0.060700,-0.033738,0.050273,-0.000549,0.030311,1.007876
34830261,0.159404,-0.003171,-0.003175,-0.002015,0.031685,1.005495
34850237,0.288619,-0.048861,0.004467,-0.000549,0.033333,1.008333
34870214,0.143051,0.019843,-0.033681,-0.001740,0.035806,1.009432
34890189,-0.177390,0.035076,-0.033616,-0.002930,0.033608,1.008059
34910166,-0.215006,0.027322,0.019845,-0.001374,0.032784,1.006044
34930142,-0.016408,0.011990,-0.033572,-0.001465,0.031502,1.005952
34950118,0.067585,0.027197,-0.018150,-0.000092,0.032234,1.006044
34970094,0.113077,-0.003331,-0.002951,-0.001923,0.033150,1.012271
34990070,0.112817,-0.011024,-0.048636,-0.002564,0.032601,1.009249
35010046,0.089626,-0.026195,0.012488,0.000092,0.032692,1.005952
35030022,-0.040107,-0.026122,-0.002865,0.000092,0.031502,1.007235
35049998,0.127630,-0.003185,0.035280,-0.001832,0.032326,1.006319
35069973,0.104428,0.073069,0.088607,-0.000092,0.032051,1.007967
35089950,-0.139651,-0.010976,-0.048918,-0.001648,0.032051,1.006685
35109926,0.051209,0.004275,0.042738,-0.000092,0.032509,1.009158
35129902,-0.086155,-0.049022,0.057825,-0.000549,0.032326,1.009158
35149878,-0.055438,-0.041296,-0.003200,-0.000458,0.033608,1.008059
35169854,-0.215300,-0.041202,-0.071864,-0.001832,0.030769,1.003755
35189830,-0.024243,-0.063989,-0.010689,-0.000824,0.031227,1.005952
35209806,-0.016634,-0.117117,-0.025923,-0.003205,0.030952,1.009066
35229782,-0.092743,0.012726,-0.018207,-0.002198,0.032601,1.006319
35249759,-0.062052,-0.010230,0.058032,-0.000275,0.034158,1.007692
35269735,0.014321,0.020316,-0.033561,-0.001007,0.032601,1.008974
35289711,-0.176206,-0.078845,-0.033453,-0.002473,0.029670,1.008700
35309687,0.029979,-0.063394,0.004692,-0.001190,0.029945,1.005128
35329665,-0.053900,0.058738,0.027540,-0.002015,0.032601,1.008608
35349641,0.220690,-0.040482,0.050354,-0.002930,0.028938,1.007418
35369617,-0.115375,-0.040418,-0.025968,-0.001190,0.032418,1.006960
35389593,-0.054053,-0.025075,-0.018269,-0.001740,0.031319,1.009799
35409569,-0.046326,-0.024998,-0.003046,-0.001007,0.029945,1.005769
35429546,0.075812,0.013150,0.012254,-0.002839,0.030861,1.002839
35449527,0.090862,-0.055469,0.042669,-0.001648,0.033608,1.007967
35469498,0.090648,-0.062968,-0.018392,-0.002015,0.032875,1.009158
35489474,0.052132,0.059164,-0.041231,-0.001465,0.033425,1.007051
35509450,0.067444,-0.032410,0.012304,-0.001740,0.030037,1.003663
35529452,0.128131,-0.047595,0.012173,-0.001648,0.031319,1.007509
35549401,-0.016991,-0.024618,-0.018256,-0.000183,0.032234,1.008700
35569377,-0.100781,-0.062643,-0.041095,-0.000916,0.032234,1.006136
35589353,-0.039464,0.036569,0.111354,-0.000092,0.032418,1.009249
35609329,-0.123322,-0.047362,0.057783,-0.001099,0.031868,1.009341
35629306,0.037167,0.036615,-0.026139,-0.002289,0.032875,1.008700
35649282,0.037006,-0.001604,0.027189,-0.001923,0.031685,1.007784
35669258,0.212097,-0.108273,0.019541,-0.002198,0.032234,1.010348
35689234,-0.009388,-0.001333,-0.003413,-0.000641,0.031136,1.007051
35709211,-0.016896,0.021513,-0.018610,-0.002106,0.032326,1.005311
35729186,0.013631,-0.047134,0.034763,-0.000733,0.030678,1.005311
35749163,0.066866,-0.039362,0.004216,-0.001190,0.031410,1.010256
35769139,-0.017020,-0.039297,0.011866,-0.000641,0.031044,1.007692
35789115,-0.070443,0.021789,-0.026352,-0.002839,0.030952,1.005952
35809091,0.044130,-0.046808,0.065140,0.000549,0.031044,1.006410
35829067,-0.024660,0.021823,0.019299,-0.000641,0.032051,1.008883
35849045,0.082206,-0.001027,0.011652,0.001007,0.031685,1.007326
35869021,0.036142,0.006577,-0.056989,0.000183,0.032509,1.007051
35888997,0.013302,-0.008744,0.072712,-0.002106,0.032051,1.005037
35908973,-0.116206,-0.031524,-0.026547,-0.001648,0.031502,1.004853
35928949,0.043975,-0.039012,0.026892,-0.001557,0.032143,1.007418
35948925,-0.078040,-0.023756,0.034415,-0.001740,0.031136,1.007784
35968902,0.143197,-0.016067,-0.049429,-0.001740,0.031410,1.008425
35988878,0.074152,-0.023594,0.019204,-0.002015,0.031868,1.005220
36008854,0.028366,-0.023556,-0.018939,-0.001648,0.031868,1.007234
36028830,0.043350,-0.008272,0.042067,-0.000549,0.033242,1.008974
36048805,-0.101370,0.029850,-0.026614,-0.002106,0.032509,1.005037
36068781,0.051341,-0.015963,-0.003664,-0.001465,0.030403,1.005220
36088757,0.134968,-0.092118,0.019226,0.000092,0.032509,1.008883
36108733,0.142153,-0.038517,0.064914,-0.000824,0.033059,1.009432
36128709,0.004642,0.060625,0.011323,-0.000733,0.031685,1.006227
36148686,0.126722,-0.023347,-0.034383,-0.000641,0.031777,1.005311
36168662,-0.071865,0.030064,-0.102868,0.000549,0.030037,1.007143
36188638,0.149362,-0.023379,-0.003600,-0.001007,0.032418,1.008700
36208614,-0.102529,-0.008075,0.057439,0.001007,0.032875,1.010073
36228590,-0.361340,0.030049,-0.034157,-0.001007,0.030861,1.013278
36248567,-0.406289,0.060445,-0.003618,-0.000549,0.032051,1.011172
36268542,-0.572814,0.045044,0.011602,0.000000,0.032326,1.006960
36288519,-0.373260,-0.000761,-0.072253,-0.002198,0.032967,1.002839
36308495,-0.311276,0.128825,-0.026285,-0.002015,0.029487,1.009890
36328471,-0.478253,0.326610,-0.041440,0.001190,0.029121,1.019414
36348447,-0.690536,0.280085,-0.026146,-0.001282,0.026832,1.008883
36368425,-0.223642,0.149774,0.004434,-0.001282,0.027747,0.985714
36388401,-0.025157,0.050371,0.019637,-0.001465,0.031227,1.004579
36408377,-0.200345,0.057917,0.050055,0.000366,0.032784,1.018498
36428353,-0.237708,0.057738,0.072803,-0.000916,0.030220,0.994048
36448329,0.326623,-0.087210,0.103102,-0.002015,0.031868,1.001374
36468305,0.097129,-0.048923,-0.026701,-0.001557,0.031502,1.013553
36488282,-0.055437,0.141738,0.041990,0.000183,0.033516,1.008333
36508258,-0.192502,-0.041577,0.003752,-0.003388,0.031502,1.001282
36528234,0.074759,-0.064313,0.041875,-0.002198,0.029579,1.007418
36548210,0.051551,-0.033576,-0.049721,-0.001465,0.030861,1.018407
36568185,-0.169469,-0.018302,-0.041947,-0.002015,0.029762,1.002564
36588161,0.158659,-0.079272,0.026695,-0.001282,0.029670,0.999725
36608137,0.066751,-0.010409,-0.080025,-0.000824,0.030220,1.014744
36628114,-0.093478,-0.018048,0.034392,0.000458,0.029945,1.008242
36648090,0.181280,-0.010357,0.034418,0.000092,0.028022,0.999451
36668066,0.043434,-0.094177,-0.057101,-0.001007,0.031136,1.009066
36688042,-0.063295,-0.025308,-0.034099,0.001465,0.030128,1.011905
36708018,-0.063151,-0.010093,0.057353,0.000641,0.029396,1.003297
36727994,0.028508,-0.017661,0.019105,-0.000183,0.031593,1.005128
36747970,0.150392,0.035722,0.019119,-0.003663,0.032509,1.008517
36767946,0.142370,0.043233,-0.003824,-0.002656,0.032601,1.010165
36787923,-0.071320,-0.071130,-0.003841,-0.002930,0.030495,1.002930
36807899,0.119285,0.028118,-0.026602,-0.003571,0.030769,1.011081
36827875,-0.140215,0.043285,-0.095243,-0.001465,0.030037,1.012088
36847851,-0.231131,-0.040694,-0.026373,-0.003022,0.030128,1.004396
36867827,0.013312,-0.010039,-0.064362,-0.001648,0.029945,1.006319
36887805,-0.070748,-0.025294,-0.041452,-0.001099,0.029853,1.011081
36907781,-0.062881,-0.002376,-0.094557,0.000000,0.029396,1.007509
36927757,0.028849,-0.032878,-0.018133,-0.000641,0.029579,1.001923
36947734,0.051590,-0.162339,-0.071455,-0.000824,0.029029,1.008425
36967709,0.005665,-0.040019,-0.017992,0.000458,0.029487,1.010623
36987685,-0.062879,-0.032218,0.035439,-0.001190,0.030861,1.005769
37007662,0.143148,-0.055023,0.073493,-0.002656,0.031319,1.006685
37027638,-0.009771,0.021302,0.126652,-0.004029,0.031685,1.008974
37047614,0.127468,0.005963,0.088175,-0.002930,0.031777,1.007234
37067590,-0.009896,0.013625,0.080401,-0.002747,0.032601,1.002747
37087565,-0.078725,0.028840,-0.057061,-0.004212,0.031868,1.006593
37107541,0.035930,0.013514,0.034573,-0.003755,0.031227,1.011996
37127517,-0.040531,0.066819,-0.011285,-0.002930,0.030678,1.005861
37147493,0.043636,-0.017136,-0.079792,-0.000458,0.029579,1.005586
37167470,-0.101341,-0.017145,-0.071927,-0.000733,0.029304,1.007234
37187446,0.127404,-0.009449,0.042544,0.000092,0.031227,1.004670
37207422,-0.010060,-0.032304,-0.033780,0.000458,0.029853,1.007509
37227398,-0.002250,-0.032232,-0.048990,0.001007,0.029579,1.005128
37247375,0.066277,-0.039745,-0.003096,-0.001374,0.028938,1.008425
37267351,0.058541,-0.024367,0.035014,0.000916,0.029853,1.007692
37287327,-0.033087,-0.092889,0.073013,-0.000458,0.032143,1.005220
37307303,0.134630,-0.047002,-0.041480,-0.004579,0.030769,1.008517
37327279,0.096219,0.082737,0.088197,-0.002198,0.031502,1.006593
37347255,0.004537,0.021468,-0.041616,-0.000733,0.031960,1.005678
37367231,0.027364,0.013840,-0.026294,-0.003846,0.029853,1.005769
37387207,0.004428,-0.039560,-0.018577,-0.003114,0.031502,1.008059
37407185,-0.148044,-0.001285,-0.033753,-0.002930,0.030495,1.005586
37427161,-0.086661,-0.001311,-0.117481,-0.003297,0.030952,1.005861
37447138,0.119328,-0.016631,0.020016,-0.001648,0.031593,1.007051
37467114,0.088532,-0.008857,0.012276,-0.000916,0.030495,1.009341
37487090,-0.003138,-0.001246,-0.018191,-0.002381,0.030220,1.006319
37507066,0.012179,0.006372,-0.071486,-0.000641,0.029670,1.006502
37527050,-0.010842,0.021584,-0.033227,-0.001648,0.030495,1.007143
37547018,0.126423,-0.024168,0.050665,-0.002289,0.029396,1.006502
37566995,0.019409,0.013973,0.035353,-0.000549,0.029945,1.006777
37586971,0.118485,0.021541,-0.041029,-0.001740,0.029487,1.006777
37606947,0.087653,-0.031845,0.020097,-0.002747,0.030861,1.006777
37626922,0.155980,-0.001302,0.111460,-0.002656,0.028663,1.007784
37646898,-0.111122,-0.069868,-0.033601,-0.000549,0.031227,1.007326
37666874,-0.080363,-0.107779,-0.079235,-0.001740,0.028297,1.007692
37686850,0.018965,-0.008439,0.035263,-0.003205,0.031227,1.006227
37706826,0.026554,0.060136,-0.048574,-0.002747,0.033150,1.007875
37726803,-0.034598,0.006632,0.020186,-0.003297,0.030495,1.008059
37746778,0.034173,-0.000937,-0.079042,-0.000733,0.030861,1.007326
37766755,-0.125927,-0.130560,-0.010301,-0.002198,0.031502,1.006136
37786731,0.179149,0.029860,0.027862,-0.001007,0.030586,1.005769
37806708,0.018731,0.029742,-0.048367,-0.002381,0.030037,1.008883
37826683,0.011021,0.006846,-0.025396,-0.002839,0.028755,1.006593
37846659,0.094921,0.006824,0.005125,-0.002381,0.028938,1.005403
37866636,0.071603,0.006829,-0.025360,-0.000733,0.029670,1.006593
37886612,0.056323,-0.031335,0.066187,0.000092,0.031136,1.007326
37906588,0.117140,-0.015988,0.020233,-0.001740,0.030128,1.007509
37926564,0.109199,0.052657,0.004976,-0.002564,0.032143,1.006502
37946542,-0.035873,0.029610,0.027825,-0.001007,0.031960,1.006502
37966518,-0.020514,0.021889,-0.063682,-0.001923,0.029579,1.006593
37986494,0.017514,-0.000936,-0.063506,-0.000733,0.031227,1.010165
38006470,-0.096683,0.037069,-0.025295,-0.002106,0.028846,1.007143
38026446,-0.104197,-0.054395,-0.002353,0.000549,0.028388,1.008791
38046423,-0.019983,-0.016212,-0.002306,-0.001740,0.030586,1.006502
38066399,0.162849,-0.039026,0.058562,-0.001374,0.031502,1.008150
38086375,-0.012701,-0.023645,-0.017759,-0.000733,0.031227,1.007235
38106351,-0.005051,-0.015966,-0.002403,-0.001465,0.029762,1.007967
38126327,0.048264,-0.031223,0.020429,-0.001648,0.031685,1.008333
38146302,0.002371,-0.031061,0.020394,-0.002198,0.028938,1.007326
38166278,-0.134774,0.014698,0.027939,-0.002747,0.030128,1.007967
38186254,-0.042953,-0.031101,0.027886,-0.001007,0.030586,1.007143
38206231,0.010436,-0.023401,0.065881,-0.002106,0.032601,1.003297
38226207,0.033231,-0.069042,-0.002863,-0.001465,0.030586,1.007509
38246183,0.132332,-0.015544,-0.033263,-0.001832,0.029762,1.004304
38266159,0.513106,-0.145075,0.065783,-0.000916,0.028480,0.997253
38286135,0.816663,-0.304710,-0.041012,-0.002656,0.028480,0.997894
38306112,0.951443,-0.197333,-0.048577,-0.004029,0.031777,1.031593
38326088,-0.239646,-0.029012,0.004893,-0.003388,0.031319,1.026557
38346064,-0.337936,0.062403,0.027776,-0.002930,0.031227,0.991575
38366040,0.463035,-0.174042,-0.010421,-0.001099,0.032875,0.995421
38386016,0.583797,-0.165787,-0.063726,-0.002015,0.032051,1.013645
38405992,0.185888,-0.104544,0.020275,-0.001648,0.030952,1.018040
38425969,-0.126852,-0.050952,-0.048392,-0.001740,0.030495,1.003388
38445945,0.254579,-0.027948,0.005106,-0.000458,0.030586,1.004304
38465923,0.238576,-0.035455,-0.017756,0.000000,0.032051,1.010073
38485898,0.001662,-0.004951,0.005121,0.001282,0.033516,1.016392
38505875,-0.059166,-0.004915,0.005104,0.000824,0.029762,1.000733
38525851,0.421181,-0.020140,0.043149,-0.002381,0.029762,0.998993
38545827,0.153244,-0.187790,0.043130,-0.002198,0.032784,1.013462
38565803,-0.007298,-0.080612,-0.048500,-0.000000,0.031777,1.010531
38585779,0.069129,0.041577,0.081221,-0.000916,0.032051,1.006593
38605755,0.038402,-0.057643,0.004828,-0.002198,0.031868,1.005494
38625732,0.213592,-0.011705,0.035267,-0.000458,0.033333,1.009799
38645708,0.205367,0.011117,0.027570,-0.002839,0.031868,1.010623
38665683,-0.435261,-0.004127,-0.033419,-0.003938,0.030769,1.005311
38685659,0.061345,-0.087953,-0.002902,-0.001557,0.032234,1.005861
38705635,-0.038183,-0.019150,-0.086789,-0.002839,0.033425,1.010257
38725611,0.007842,0.049551,0.012618,-0.000275,0.031044,1.006227
38745587,0.061185,-0.003977,-0.025587,-0.000549,0.031868,1.003938
38765564,-0.030511,-0.042054,-0.040702,0.000092,0.030769,1.010623
38785540,-0.243842,-0.026759,-0.017724,-0.000733,0.031227,1.009890
38805516,-0.083190,-0.072387,0.058430,-0.000549,0.031044,1.005952
38825492,-0.029671,-0.011261,0.004950,-0.001374,0.033608,1.004854
38845469,-0.059949,-0.133109,0.012612,-0.002289,0.030861,1.009066
38865445,-0.090323,-0.018533,0.088759,-0.001923,0.031685,1.011447
38885421,-0.212021,0.019627,0.019982,-0.001007,0.033242,1.009799
38905397,-0.074291,-0.041313,0.035121,-0.002473,0.031777,1.005220
38925373,-0.119802,0.004442,0.073175,-0.002747,0.033974,1.005586
38945350,0.047998,-0.025988,-0.003245,-0.002015,0.032784,1.008883
38965326,-0.058704,0.027456,-0.048893,-0.000549,0.030952,1.008059
38985303,0.017704,0.034919,0.012162,-0.004396,0.031319,1.008974
39005279,-0.020521,-0.064222,0.034969,-0.002473,0.031777,1.006960
39025255,-0.203338,0.027389,-0.018443,-0.000733,0.032143,1.005403
39045232,-0.103755,-0.033614,-0.041321,-0.000458,0.032692,1.007784
39065208,-0.248278,-0.041152,-0.094494,0.002198,0.031868,1.006960
39085184,0.018878,-0.025826,0.012428,-0.000549,0.029579,1.004212
39105160,0.179009,-0.071540,0.065707,-0.000641,0.032234,1.007418
39125137,-0.156803,0.058244,-0.041162,-0.002198,0.030495,1.008333
39145112,0.018914,-0.025749,0.035197,-0.002015,0.031777,1.004304
39165088,0.095050,0.020056,0.012288,-0.002747,0.032875,1.006410
39185063,0.033891,-0.002811,0.027446,-0.000916,0.030861,1.004670
39205040,0.071924,0.058136,-0.048842,-0.002381,0.032875,1.008150
39225016,-0.149195,0.027491,0.012253,-0.003114,0.032143,1.007601
39244992,-0.103185,-0.033498,-0.102096,-0.001648,0.031410,1.007051
39264968,0.041776,0.019858,-0.033293,-0.001374,0.031044,1.005586
39284944,0.079959,0.004547,0.020180,-0.000824,0.032784,1.005495
39304921,0.079720,0.004614,-0.033219,-0.000549,0.030678,1.010348
39324897,-0.050158,0.004596,0.020236,-0.000092,0.032418,1.007509
39344873,-0.126134,-0.064035,-0.025557,0.000733,0.031136,1.006868
39364849,0.102789,-0.033405,0.134583,-0.001648,0.032967,1.007234
39384825,-0.011783,-0.094248,-0.048676,0.001007,0.030220,1.009982
39404801,0.079677,-0.010174,0.096215,-0.000183,0.030311,1.010256
39424778,0.003262,0.012703,0.042587,-0.001923,0.033974,1.004945
39444754,-0.095825,-0.055945,-0.033706,0.000092,0.031777,1.006868
39464730,-0.034531,-0.040543,-0.064062,-0.000366,0.032784,1.008791
39484706,0.034120,-0.002333,0.004655,-0.002198,0.034524,1.006593
39504684,-0.026977,-0.025215,0.050389,-0.000641,0.031868,1.005678
39524660,0.102630,-0.025111,0.012125,-0.001648,0.030586,1.006777
39544636,0.087162,-0.070750,0.057806,-0.000275,0.032967,1.008517
39564612,0.071619,0.051320,-0.003283,-0.001465,0.033700,1.008517
39584589,0.002820,-0.009822,0.027193,-0.001557,0.033333,1.007235
39604565,-0.035187,0.028366,-0.026147,-0.001374,0.029762,1.005952
39624541,-0.019840,-0.009785,-0.064243,-0.000549,0.033059,1.004945
39644517,-0.096072,0.020642,-0.048852,-0.000824,0.031593,1.009615
39664493,0.148043,-0.009891,0.019866,-0.001465,0.030220,1.007509
39684470,-0.004844,0.066351,0.004591,0.000458,0.030037,1.006136
39704444,-0.057994,-0.116701,-0.025897,-0.000183,0.031410,1.006593
39724421,0.003087,-0.009670,-0.018239,-0.001557,0.031593,1.009158
39744397,-0.004404,-0.032573,0.042794,-0.003022,0.031044,1.008425
39764373,-0.035035,-0.055345,0.004561,-0.001374,0.033333,1.007692
39784349,0.025958,-0.032261,-0.094493,-0.000366,0.030769,1.006410
39804325,-0.034864,0.028776,-0.033250,-0.000092,0.032784,1.006502
39824301,-0.004499,-0.024704,-0.025635,-0.001740,0.030586,1.007784
39844278,0.056627,-0.001747,0.020220,-0.001648,0.031502,1.006868
39864254,-0.012276,-0.009408,-0.056048,0.000458,0.031868,1.006044
39884230,-0.065504,-0.039856,-0.040646,-0.001099,0.031960,1.005678
39904206,-0.088123,-0.024500,0.104223,-0.001099,0.032418,1.008517
39924182,-0.019323,0.006134,-0.048543,0.000549,0.031227,1.008425
39944158,0.041631,-0.009216,-0.025466,0.000366,0.033425,1.009341
39964135,-0.026992,0.006068,0.058421,-0.001923,0.031227,1.007143
39984111,-0.118470,0.059415,-0.002723,-0.001190,0.030128,1.007601
40004087,-0.110586,-0.085635,0.035455,-0.000183,0.032051,1.008150
40024065,0.049784,0.021349,0.058156,-0.000824,0.031593,1.008333
40044041,-0.079892,0.006034,0.042782,-0.001099,0.031319,1.007234
40064017,0.049807,0.021301,-0.033492,-0.003663,0.032875,1.007875
40083993,-0.049287,-0.062649,-0.041080,-0.002198,0.030220,1.008883
40103969,0.057526,-0.077712,-0.063717,-0.000916,0.031227,1.007234
40123946,-0.026534,-0.008941,0.020196,-0.002930,0.033333,1.008700
40143922,0.011691,-0.008902,-0.010293,0.001923,0.033150,1.006227
40163898,0.049744,-0.054632,-0.063721,-0.001648,0.031319,1.007875
40183875,0.270702,-0.062048,0.035614,-0.001282,0.029579,1.008791
40203850,0.087039,-0.031427,0.004969,-0.001282,0.030769,1.009066
40223848,-0.019850,0.014349,0.043055,-0.000275,0.033333,1.007326
40243801,0.010766,-0.016132,0.035380,-0.001099,0.031319,1.005311
40263778,0.041017,0.052455,-0.063795,0.000000,0.034066,1.006136
40283754,0.002946,0.006597,0.035396,-0.003938,0.031868,1.006502
40303730,-0.141914,0.014213,0.027683,-0.002381,0.032326,1.007967
40323706,-0.133809,0.014163,-0.040833,-0.001832,0.029579,1.008883
40343683,0.163712,0.029393,0.020197,-0.000092,0.033333,1.007051
40363659,0.125065,0.021711,-0.040892,-0.001007,0.031044,1.006136
40383635,0.079121,0.006412,0.004983,-0.000275,0.032601,1.005861
40403611,-0.119289,0.014028,0.004946,-0.000183,0.031868,1.008425
40423588,0.163045,-0.031712,0.103963,-0.001190,0.031502,1.007326
40443564,0.185511,-0.084990,0.073273,-0.000183,0.029853,1.008150
40463540,-0.150348,0.029494,-0.018347,-0.002289,0.031319,1.007051
40483516,0.002500,-0.008626,-0.033576,-0.001740,0.032051,1.004121
40503492,-0.005050,-0.100147,0.096052,-0.001282,0.031777,1.003388
